File: Research-ANL/1_Projects/SLADS_2/4_SLADS-rbf-nnr/others/PbSn/2017_04_05_PbSn_Region_1_Inside/New Project/Export/Image 1_spot_3/spectrum.emsa
#FORMAT      : EMSA/MAS Spectral Data File
#VERSION     : 1.0
#TITLE       : New Project - spectrum
#DATE        : 05-Apr-2017
#TIME        : 12:37
#OWNER       : Phenom-World B.V.
#NPOINTS     : 170.
#NCOLUMNS    : 1.
#XUNITS      : eV
#YUNITS      : counts
#DATATYPE    : XY
#XPERCHAN    : 10.0
#OFFSET      : -78.6
#SIGNALTYPE  : EDS
#XLABEL      : Energy
#YLABEL      : Counts
#BEAMKV   -kV: 15.0
#ELEVANGLE-dg: 19.0
#AZIMANGLE-dg: 0.0
#LIVETIME  -s: 0.
#REALTIME  -s: 10.
#SPECTRUM    : Spectral Data Starts Here
    6.0,      0.0
   25.9,      0.0
   45.9,      0.0
   65.8,      0.0
   85.7,      0.0
  105.6,      0.0
  125.5,      0.0
  145.5,      0.0
  165.4,      0.0
  185.3,      0.0
  205.2,      0.0
  225.1,      0.0
  245.1,      1.0
  265.0,      7.0
  284.9,      7.0
  304.8,     10.0
  324.7,      9.0
  344.7,      7.0
  364.6,      7.0
  384.5,      5.0
  404.4,      6.0
  424.3,      8.0
  444.3,      8.0
  464.2,      8.0
  484.1,      6.0
  504.0,      5.0
  523.9,      7.0
  543.8,      7.0
  563.8,      7.0
  583.7,      9.0
  603.6,      5.0
  623.5,      7.0
  643.4,      8.0
  663.4,      7.0
  683.3,      4.0
  703.2,     11.0
  723.1,      3.0
  743.0,      8.0
  763.0,      7.0
  782.9,      2.0
  802.8,      6.0
  822.7,      4.0
  842.6,      6.0
  862.6,      5.0
  882.5,     12.0
  902.4,      7.0
  922.3,      5.0
  942.2,      4.0
  962.2,      4.0
  982.1,      3.0
 1002.0,      4.0
 1021.9,      6.0
 1041.8,      6.0
 1061.8,      6.0
 1081.7,      5.0
 1101.6,      8.0
 1121.5,      8.0
 1141.4,      5.0
 1161.4,      6.0
 1181.3,      2.0
 1201.2,      8.0
 1221.1,      5.0
 1241.0,      4.0
 1261.0,      9.0
 1280.9,      9.0
 1300.8,      7.0
 1320.7,      1.0
 1340.6,      5.0
 1360.6,      6.0
 1380.5,      4.0
 1400.4,      4.0
 1420.3,      9.0
 1440.2,      8.0
 1460.2,      7.0
 1480.1,      8.0
 1500.0,      7.0
 1519.9,      6.0
 1539.8,     10.0
 1559.8,      8.0
 1579.7,      7.0
 1599.6,      8.0
 1619.5,      9.0
 1639.4,      3.0
 1659.3,      6.0
 1679.3,      7.0
 1699.2,      6.0
 1719.1,     13.0
 1739.0,     13.0
 1758.9,     10.0
 1778.9,      7.0
 1798.8,     12.0
 1818.7,     12.0
 1838.6,     12.0
 1858.5,     12.0
 1878.5,      8.0
 1898.4,     10.0
 1918.3,     10.0
 1938.2,      8.0
 1958.1,      8.0
 1978.1,      6.0
 1998.0,      9.0
 2017.9,     11.0
 2037.8,      8.0
 2057.7,      7.0
 2077.7,     11.0
 2097.6,      9.0
 2117.5,      7.0
 2137.4,     12.0
 2157.3,      8.0
 2177.3,     11.0
 2197.2,     10.0
 2217.1,     16.0
 2237.0,     18.0
 2256.9,      9.0
 2276.9,     27.0
 2296.8,     47.0
 2316.7,     60.0
 2336.6,     74.0
 2356.5,     71.0
 2376.5,     75.0
 2396.4,     66.0
 2416.3,     71.0
 2436.2,     55.0
 2456.1,     61.0
 2476.1,     41.0
 2496.0,     39.0
 2515.9,     24.0
 2535.8,     12.0
 2555.7,      9.0
 2575.7,      6.0
 2595.6,      2.0
 2615.5,      8.0
 2635.4,      4.0
 2655.3,      4.0
 2675.3,      5.0
 2695.2,      6.0
 2715.1,      6.0
 2735.0,      4.0
 2754.9,      5.0
 2774.9,      4.0
 2794.8,      3.0
 2814.7,      6.0
 2834.6,      3.0
 2854.5,      4.0
 2874.4,      6.0
 2894.4,      4.0
 2914.3,      4.0
 2934.2,      5.0
 2954.1,      5.0
 2974.0,      3.0
 2994.0,      4.0
 3013.9,      2.0
 3033.8,      9.0
 3053.7,      6.0
 3073.6,      8.0
 3093.6,      6.0
 3113.5,      4.0
 3133.4,      4.0
 3153.3,      4.0
 3173.2,      3.0
 3193.2,      6.0
 3213.1,      4.0
 3233.0,      5.0
 3252.9,      6.0
 3272.8,      3.0
 3292.8,      4.0
 3312.7,      5.0
 3332.6,     10.0
 3352.5,      8.0
 3372.4,      9.0
 3392.4,     18.0
 3412.3,     16.0
 3432.2,     17.0
 3452.1,     22.0
 3472.0,     25.0
 3492.0,     21.0
 3511.9,     10.0
 3531.8,     11.0
 3551.7,      9.0
 3571.6,     10.0
 3591.6,      5.0
 3611.5,      6.0
 3631.4,      7.0
 3651.3,     11.0
 3671.2,     13.0
 3691.2,     15.0
 3711.1,      7.0
 3731.0,     16.0
 3750.9,      4.0
 3770.8,      7.0
 3790.8,      5.0
 3810.7,      6.0
 3830.6,      7.0
 3850.5,      6.0
 3870.4,     10.0
 3890.4,      2.0
 3910.3,      6.0
 3930.2,      7.0
 3950.1,      5.0
 3970.0,      6.0
 3990.0,      4.0
 4009.9,      2.0
 4029.8,      4.0
 4049.7,      4.0
 4069.6,      6.0
 4089.5,      6.0
 4109.5,      2.0
 4129.4,      3.0
 4149.3,      3.0
 4169.2,      4.0
 4189.1,      4.0
 4209.1,      8.0
 4229.0,      5.0
 4248.9,      4.0
 4268.8,      3.0
 4288.7,      8.0
 4308.7,      5.0
 4328.6,      4.0
 4348.5,      4.0
 4368.4,      0.0
 4388.3,      4.0
 4408.3,      3.0
 4428.2,      2.0
 4448.1,      2.0
 4468.0,      5.0
 4487.9,      2.0
 4507.9,      6.0
 4527.8,      2.0
 4547.7,      2.0
 4567.6,     10.0
 4587.5,      4.0
 4607.5,      5.0
 4627.4,      6.0
 4647.3,      6.0
 4667.2,      4.0
 4687.1,      4.0
 4707.1,      6.0
 4727.0,      5.0
 4746.9,      4.0
 4766.8,      7.0
 4786.7,      4.0
 4806.7,      4.0
 4826.6,      1.0
 4846.5,      7.0
 4866.4,      4.0
 4886.3,      2.0
 4906.3,      7.0
 4926.2,      1.0
 4946.1,      6.0
 4966.0,      5.0
 4985.9,      3.0
 5005.9,      4.0
 5025.8,      4.0
 5045.7,      4.0
 5065.6,      5.0
 5085.5,      6.0
 5105.5,      3.0
 5125.4,      7.0
 5145.3,      6.0
 5165.2,      5.0
 5185.1,      3.0
 5205.0,      6.0
 5225.0,      6.0
 5244.9,      4.0
 5264.8,      3.0
 5284.7,      1.0
 5304.6,      4.0
 5324.6,      4.0
 5344.5,      5.0
 5364.4,      4.0
 5384.3,      3.0
 5404.2,      4.0
 5424.2,      4.0
 5444.1,      6.0
 5464.0,      4.0
 5483.9,      4.0
 5503.8,      4.0
 5523.8,      2.0
 5543.7,      7.0
 5563.6,      1.0
 5583.5,      3.0
 5603.4,      4.0
 5623.4,      3.0
 5643.3,      4.0
 5663.2,      4.0
 5683.1,      1.0
 5703.0,      6.0
 5723.0,      2.0
 5742.9,      4.0
 5762.8,      7.0
 5782.7,      3.0
 5802.6,      2.0
 5822.6,      3.0
 5842.5,      3.0
 5862.4,      3.0
 5882.3,      5.0
 5902.2,      6.0
 5922.2,      5.0
 5942.1,      3.0
 5962.0,      1.0
 5981.9,      9.0
 6001.8,      4.0
 6021.8,      4.0
 6041.7,      5.0
 6061.6,      4.0
 6081.5,      2.0
 6101.4,      3.0
 6121.4,      4.0
 6141.3,      4.0
 6161.2,      4.0
 6181.1,      4.0
 6201.0,      3.0
 6221.0,      4.0
 6240.9,      3.0
 6260.8,      5.0
 6280.7,      2.0
 6300.6,      7.0
 6320.6,      2.0
 6340.5,      5.0
 6360.4,      5.0
 6380.3,      4.0
 6400.2,      1.0
 6420.1,      2.0
 6440.1,      1.0
 6460.0,      3.0
 6479.9,      2.0
 6499.8,      3.0
 6519.7,      2.0
 6539.7,      2.0
 6559.6,      2.0
 6579.5,      3.0
 6599.4,      2.0
 6619.3,      2.0
 6639.3,      2.0
 6659.2,      3.0
 6679.1,      7.0
 6699.0,      4.0
 6718.9,      3.0
 6738.9,      3.0
 6758.8,      3.0
 6778.7,      4.0
 6798.6,      2.0
 6818.5,      2.0
 6838.5,      4.0
 6858.4,      4.0
 6878.3,      3.0
 6898.2,      4.0
 6918.1,      0.0
 6938.1,      6.0
 6958.0,      3.0
 6977.9,      1.0
 6997.8,      5.0
 7017.7,      0.0
 7037.7,      1.0
 7057.6,      6.0
 7077.5,      5.0
 7097.4,      2.0
 7117.3,      6.0
 7137.3,      4.0
 7157.2,      5.0
 7177.1,      4.0
 7197.0,      2.0
 7216.9,      1.0
 7236.9,      3.0
 7256.8,      5.0
 7276.7,      5.0
 7296.6,      1.0
 7316.5,      5.0
 7336.5,      4.0
 7356.4,      2.0
 7376.3,      6.0
 7396.2,      1.0
 7416.1,      1.0
 7436.1,      2.0
 7456.0,      4.0
 7475.9,      6.0
 7495.8,      2.0
 7515.7,      2.0
 7535.6,      4.0
 7555.6,      4.0
 7575.5,      6.0
 7595.4,      1.0
 7615.3,      5.0
 7635.2,      5.0
 7655.2,      2.0
 7675.1,      4.0
 7695.0,      4.0
 7714.9,      3.0
 7734.8,      1.0
 7754.8,      2.0
 7774.7,      2.0
 7794.6,      5.0
 7814.5,      2.0
 7834.4,      1.0
 7854.4,      0.0
 7874.3,      5.0
 7894.2,      4.0
 7914.1,      4.0
 7934.0,      2.0
 7954.0,      3.0
 7973.9,      2.0
 7993.8,      3.0
 8013.7,      1.0
 8033.6,      2.0
 8053.6,      5.0
 8073.5,      2.0
 8093.4,      1.0
 8113.3,      1.0
 8133.2,      2.0
 8153.2,      3.0
 8173.1,      3.0
 8193.0,      4.0
 8212.9,      0.0
 8232.8,      2.0
 8252.8,      2.0
 8272.7,      2.0
 8292.6,      1.0
 8312.5,      1.0
 8332.4,      5.0
 8352.4,      6.0
 8372.3,      1.0
 8392.2,      2.0
 8412.1,      3.0
 8432.0,      1.0
 8452.0,      2.0
 8471.9,      0.0
 8491.8,      2.0
 8511.7,      1.0
 8531.6,      6.0
 8551.6,      4.0
 8571.5,      4.0
 8591.4,      5.0
 8611.3,      3.0
 8631.2,      2.0
 8651.2,      5.0
 8671.1,      3.0
 8691.0,      1.0
 8710.9,      1.0
 8730.8,      3.0
 8750.7,      2.0
 8770.7,      6.0
 8790.6,      7.0
 8810.5,      3.0
 8830.4,      3.0
 8850.3,      0.0
 8870.3,      5.0
 8890.2,      1.0
 8910.1,      6.0
 8930.0,      2.0
 8949.9,      1.0
 8969.9,      3.0
 8989.8,      1.0
 9009.7,      2.0
 9029.6,      4.0
 9049.5,      2.0
 9069.5,      3.0
 9089.4,      2.0
 9109.3,      3.0
 9129.2,      1.0
 9149.1,      5.0
 9169.1,      3.0
 9189.0,      2.0
 9208.9,      4.0
 9228.8,      5.0
 9248.7,      2.0
 9268.7,      3.0
 9288.6,      4.0
 9308.5,      4.0
 9328.4,      2.0
 9348.3,      2.0
 9368.3,      3.0
 9388.2,      3.0
 9408.1,      1.0
 9428.0,      3.0
 9447.9,      2.0
 9467.9,      3.0
 9487.8,      3.0
 9507.7,      1.0
 9527.6,      2.0
 9547.5,      2.0
 9567.5,      5.0
 9587.4,      2.0
 9607.3,      2.0
 9627.2,      3.0
 9647.1,      2.0
 9667.1,      1.0
 9687.0,      2.0
 9706.9,      3.0
 9726.8,      2.0
 9746.7,      1.0
 9766.7,      6.0
 9786.6,      3.0
 9806.5,      4.0
 9826.4,      2.0
 9846.3,      3.0
 9866.2,      3.0
 9886.2,      3.0
 9906.1,      3.0
 9926.0,      0.0
 9945.9,      6.0
 9965.8,      2.0
 9985.8,      4.0
10005.7,      3.0
10025.6,      4.0
10045.5,      4.0
10065.4,      2.0
10085.4,      0.0
10105.3,      2.0
10125.2,      3.0
10145.1,      0.0
10165.0,      3.0
10185.0,      8.0
10204.9,      0.0
10224.8,      7.0
10244.7,      4.0
10264.6,      1.0
10284.6,      2.0
10304.5,      4.0
10324.4,      2.0
10344.3,      2.0
10364.2,      3.0
10384.2,      1.0
10404.1,      1.0
10424.0,      9.0
10443.9,      0.0
10463.8,      4.0
10483.8,      7.0
10503.7,      3.0
10523.6,      2.0
10543.5,      6.0
10563.4,      5.0
10583.4,      3.0
10603.3,      3.0
10623.2,      3.0
10643.1,      4.0
10663.0,      3.0
10683.0,      4.0
10702.9,      3.0
10722.8,      3.0
10742.7,      3.0
10762.6,      3.0
10782.6,      0.0
10802.5,      3.0
10822.4,      3.0
10842.3,      1.0
10862.2,      3.0
10882.2,      4.0
10902.1,      4.0
10922.0,      2.0
10941.9,      1.0
10961.8,      2.0
10981.8,      1.0
11001.7,      1.0
11021.6,      4.0
11041.5,      2.0
11061.4,      0.0
11081.3,      3.0
11101.3,      1.0
11121.2,      1.0
11141.1,      3.0
11161.0,      1.0
11180.9,      1.0
11200.9,      2.0
11220.8,      3.0
11240.7,      1.0
11260.6,      1.0
11280.5,      5.0
11300.5,      2.0
11320.4,      2.0
11340.3,      2.0
11360.2,      3.0
11380.1,      1.0
11400.1,      5.0
11420.0,      0.0
11439.9,      5.0
11459.8,      5.0
11479.7,      1.0
11499.7,      1.0
11519.6,      4.0
11539.5,      2.0
11559.4,      3.0
11579.3,      2.0
11599.3,      2.0
11619.2,      1.0
11639.1,      1.0
11659.0,      3.0
11678.9,      1.0
11698.9,      3.0
11718.8,      3.0
11738.7,      1.0
11758.6,      0.0
11778.5,      1.0
11798.5,      2.0
11818.4,      1.0
11838.3,      3.0
11858.2,      0.0
11878.1,      0.0
11898.1,      2.0
11918.0,      1.0
11937.9,      2.0
11957.8,      3.0
11977.7,      3.0
11997.7,      1.0
12017.6,      2.0
12037.5,      2.0
12057.4,      3.0
12077.3,      2.0
12097.3,      3.0
12117.2,      1.0
12137.1,      3.0
12157.0,      3.0
12176.9,      2.0
12196.8,      2.0
12216.8,      3.0
12236.7,      1.0
12256.6,      2.0
12276.5,      2.0
12296.4,      1.0
12316.4,      3.0
12336.3,      2.0
12356.2,      2.0
12376.1,      2.0
12396.0,      3.0
12416.0,      3.0
12435.9,      4.0
12455.8,      1.0
12475.7,      3.0
12495.6,      1.0
12515.6,      3.0
12535.5,      1.0
12555.4,      3.0
12575.3,      0.0
12595.2,      3.0
12615.2,      5.0
12635.1,      3.0
12655.0,      4.0
12674.9,      2.0
12694.8,      0.0
12714.8,      2.0
12734.7,      4.0
12754.6,      1.0
12774.5,      2.0
12794.4,      2.0
12814.4,      1.0
12834.3,      3.0
12854.2,      2.0
12874.1,      4.0
12894.0,      2.0
12914.0,      1.0
12933.9,      2.0
12953.8,      4.0
12973.7,      2.0
12993.6,      2.0
13013.6,      3.0
13033.5,      1.0
13053.4,      2.0
13073.3,      4.0
13093.2,      2.0
13113.2,      1.0
13133.1,      3.0
13153.0,      2.0
13172.9,      2.0
13192.8,      2.0
13212.8,      1.0
13232.7,      1.0
13252.6,      3.0
13272.5,      1.0
13292.4,      1.0
13312.4,      3.0
13332.3,      1.0
13352.2,      1.0
13372.1,      3.0
13392.0,      2.0
13411.9,      3.0
13431.9,      1.0
13451.8,      3.0
13471.7,      1.0
13491.6,      1.0
13511.5,      2.0
13531.5,      1.0
13551.4,      1.0
13571.3,      2.0
13591.2,      1.0
13611.1,      5.0
13631.1,      2.0
13651.0,      3.0
13670.9,      1.0
13690.8,      0.0
13710.7,      2.0
13730.7,      1.0
13750.6,      2.0
13770.5,      1.0
13790.4,      1.0
13810.3,      2.0
13830.3,      1.0
13850.2,      3.0
13870.1,      3.0
13890.0,      2.0
13909.9,      4.0
13929.9,      3.0
13949.8,      2.0
13969.7,      1.0
13989.6,      2.0
14009.5,      2.0
14029.5,      0.0
14049.4,      1.0
14069.3,      1.0
14089.2,      0.0
14109.1,      2.0
14129.1,      3.0
14149.0,      2.0
14168.9,      3.0
14188.8,      1.0
14208.7,      2.0
14228.7,      1.0
14248.6,      2.0
14268.5,      2.0
14288.4,      1.0
14308.3,      0.0
14328.3,      1.0
14348.2,      2.0
14368.1,      0.0
14388.0,      3.0
14407.9,      2.0
14427.9,      1.0
14447.8,      2.0
14467.7,      1.0
14487.6,      2.0
14507.5,      1.0
14527.4,      2.0
14547.4,      2.0
14567.3,      0.0
14587.2,      1.0
14607.1,      0.0
14627.0,      1.0
14647.0,      0.0
14666.9,      1.0
14686.8,      1.0
14706.7,      0.0
14726.6,      0.0
14746.6,      0.0
14766.5,      2.0
14786.4,      0.0
14806.3,      0.0
14826.2,      1.0
14846.2,      1.0
14866.1,      0.0
14886.0,      0.0
14905.9,      0.0
14925.8,      0.0
14945.8,      1.0
14965.7,      0.0
14985.6,      0.0
15005.5,      0.0
15025.4,      0.0
15045.4,      0.0
15065.3,      0.0
15085.2,      0.0
15105.1,      0.0
15125.0,      0.0
15145.0,      0.0
15164.9,      0.0
15184.8,      0.0
15204.7,      0.0
15224.6,      0.0
15244.6,      0.0
15264.5,      0.0
15284.4,      0.0
15304.3,      0.0
15324.2,      0.0
15344.2,      0.0
15364.1,      0.0
15384.0,      0.0
15403.9,      0.0
15423.8,      0.0
15443.8,      0.0
15463.7,      0.0
15483.6,      0.0
15503.5,      0.0
15523.4,      0.0
15543.4,      0.0
15563.3,      0.0
15583.2,      0.0
15603.1,      0.0
15623.0,      0.0
15643.0,      0.0
15662.9,      0.0
15682.8,      0.0
15702.7,      0.0
15722.6,      0.0
15742.5,      0.0
15762.5,      0.0
15782.4,      0.0
15802.3,      0.0
15822.2,      0.0
15842.1,      0.0
15862.1,      0.0
15882.0,      0.0
15901.9,      0.0
15921.8,      0.0
15941.7,      0.0
15961.7,      0.0
15981.6,      0.0
16001.5,      0.0
16021.4,      0.0
16041.3,      0.0
16061.3,      0.0
16081.2,      0.0
16101.1,      0.0
16121.0,      0.0
16140.9,      0.0
16160.9,      0.0
16180.8,      0.0
16200.7,      0.0
16220.6,      0.0
16240.5,      0.0
16260.5,      0.0
16280.4,      0.0
16300.3,      0.0
16320.2,      0.0
16340.1,      0.0
16360.1,      0.0
16380.0,      0.0
16399.9,      0.0
16419.8,      0.0
16439.7,      0.0
16459.7,      0.0
16479.6,      0.0
16499.5,      0.0
16519.4,      0.0
16539.3,      0.0
16559.3,      0.0
16579.2,      0.0
16599.1,      0.0
16619.0,      0.0
16638.9,      0.0
16658.9,      0.0
16678.8,      0.0
16698.7,      0.0
16718.6,      0.0
16738.5,      0.0
16758.5,      0.0
16778.4,      0.0
16798.3,      0.0
16818.2,      0.0
16838.1,      0.0
16858.0,      0.0
16878.0,      0.0
16897.9,      0.0
16917.8,      0.0
16937.7,      0.0
16957.6,      0.0
16977.6,      0.0
16997.5,      0.0
17017.4,      0.0
17037.3,      0.0
17057.2,      0.0
17077.2,      0.0
17097.1,      0.0
17117.0,      0.0
17136.9,      0.0
17156.8,      0.0
17176.8,      0.0
17196.7,      0.0
17216.6,      0.0
17236.5,      0.0
17256.4,      0.0
17276.4,      0.0
17296.3,      0.0
17316.2,      0.0
17336.1,      0.0
17356.0,      0.0
17376.0,      0.0
17395.9,      0.0
17415.8,      0.0
17435.7,      0.0
17455.6,      0.0
17475.6,      0.0
17495.5,      0.0
17515.4,      0.0
17535.3,      0.0
17555.2,      0.0
17575.2,      0.0
17595.1,      0.0
17615.0,      0.0
17634.9,      0.0
17654.8,      0.0
17674.8,      0.0
17694.7,      0.0
17714.6,      0.0
17734.5,      0.0
17754.4,      0.0
17774.4,      0.0
17794.3,      0.0
17814.2,      0.0
17834.1,      0.0
17854.0,      0.0
17874.0,      0.0
17893.9,      0.0
17913.8,      0.0
17933.7,      0.0
17953.6,      0.0
17973.6,      0.0
17993.5,      0.0
18013.4,      0.0
18033.3,      0.0
18053.2,      0.0
18073.1,      0.0
18093.1,      0.0
18113.0,      0.0
18132.9,      0.0
18152.8,      0.0
18172.7,      0.0
18192.7,      0.0
18212.6,      0.0
18232.5,      0.0
18252.4,      0.0
18272.3,      0.0
18292.3,      0.0
18312.2,      0.0
18332.1,      0.0
18352.0,      0.0
18371.9,      0.0
18391.9,      0.0
18411.8,      0.0
18431.7,      0.0
18451.6,      0.0
18471.5,      0.0
18491.5,      0.0
18511.4,      0.0
18531.3,      0.0
18551.2,      0.0
18571.1,      0.0
18591.1,      0.0
18611.0,      0.0
18630.9,      0.0
18650.8,      0.0
18670.7,      0.0
18690.7,      0.0
18710.6,      0.0
18730.5,      0.0
18750.4,      0.0
18770.3,      0.0
18790.3,      0.0
18810.2,      0.0
18830.1,      0.0
18850.0,      0.0
18869.9,      0.0
18889.9,      0.0
18909.8,      0.0
18929.7,      0.0
18949.6,      0.0
18969.5,      0.0
18989.5,      0.0
19009.4,      0.0
19029.3,      0.0
19049.2,      0.0
19069.1,      0.0
19089.1,      0.0
19109.0,      0.0
19128.9,      0.0
19148.8,      0.0
19168.7,      0.0
19188.6,      0.0
19208.6,      0.0
19228.5,      0.0
19248.4,      0.0
19268.3,      0.0
19288.2,      0.0
19308.2,      0.0
19328.1,      0.0
19348.0,      0.0
19367.9,      0.0
19387.8,      0.0
19407.8,      0.0
19427.7,      0.0
19447.6,      0.0
19467.5,      0.0
19487.4,      0.0
19507.4,      0.0
19527.3,      0.0
19547.2,      0.0
19567.1,      0.0
19587.0,      0.0
19607.0,      0.0
19626.9,      0.0
19646.8,      0.0
19666.7,      0.0
19686.6,      0.0
19706.6,      0.0
19726.5,      0.0
19746.4,      0.0
19766.3,      0.0
19786.2,      0.0
19806.2,      0.0
19826.1,      0.0
19846.0,      0.0
19865.9,      0.0
19885.8,      0.0
19905.8,      0.0
19925.7,      0.0
19945.6,      0.0
19965.5,      0.0
19985.4,      0.0
20005.4,      0.0
20025.3,      0.0
20045.2,      0.0
20065.1,      0.0
20085.0,      0.0
20105.0,      0.0
20124.9,      0.0
20144.8,      0.0
20164.7,      0.0
20184.6,      0.0
20204.6,      0.0
20224.5,      0.0
20244.4,      0.0
20264.3,      0.0
20284.2,      0.0
20304.2,      0.0
20314.1,      0.0
#ENDOFDATA   :